PLQY measurement:
Date: 	11.05.2023 13:53:59
Peak emission wavelength (nm): 747
 PLQY = 	 	1.11E-2
absorded light fraction (%): 78
MAYA saturard: FALSE
USB2000 saturaed: FALSE
wavelength	corrected total emission spec
6.7744E+2	6.4288E-3
6.7766E+2	3.5394E-3
6.7789E+2	7.4520E-3
6.7811E+2	3.5883E-3
6.7833E+2	8.5240E-3
6.7856E+2	7.0644E-3
6.7878E+2	3.6739E-3
6.7900E+2	5.3422E-3
6.7922E+2	5.5073E-3
6.7945E+2	7.6882E-3
6.7967E+2	3.8376E-3
6.7989E+2	1.1311E-2
6.8011E+2	4.6647E-3
6.8034E+2	5.4496E-3
6.8056E+2	1.0190E-2
6.8078E+2	5.5633E-3
6.8100E+2	9.2865E-3
6.8123E+2	4.4704E-3
6.8145E+2	9.9408E-3
6.8167E+2	4.5693E-3
6.8189E+2	9.2279E-3
6.8212E+2	5.6390E-3
6.8234E+2	8.1026E-3
6.8256E+2	6.5136E-3
6.8278E+2	7.7817E-3
6.8300E+2	7.3591E-3
6.8323E+2	7.4735E-3
6.8345E+2	1.0436E-2
6.8367E+2	7.2649E-3
6.8389E+2	6.3423E-3
6.8412E+2	9.1403E-3
6.8434E+2	7.3303E-3
6.8456E+2	7.9194E-3
6.8478E+2	6.4008E-3
6.8500E+2	8.8605E-3
6.8523E+2	8.6919E-3
6.8545E+2	7.0081E-3
6.8567E+2	9.6198E-3
6.8589E+2	8.5549E-3
6.8611E+2	8.5274E-3
6.8634E+2	3.2060E-3
6.8656E+2	1.1064E-2
6.8678E+2	1.2126E-2
6.8700E+2	7.8968E-3
6.8722E+2	1.1179E-2
6.8745E+2	9.7611E-3
6.8767E+2	8.7043E-3
6.8789E+2	9.5554E-3
6.8811E+2	7.2746E-3
6.8833E+2	8.3518E-3
6.8856E+2	5.5763E-3
6.8878E+2	1.3191E-2
6.8900E+2	9.2233E-3
6.8922E+2	1.2132E-2
6.8944E+2	1.3084E-2
6.8966E+2	1.3088E-2
6.8989E+2	1.6146E-2
6.9011E+2	9.1635E-3
6.9033E+2	1.0638E-2
6.9055E+2	1.1237E-2
6.9077E+2	1.6540E-2
6.9099E+2	7.6623E-3
6.9122E+2	1.1387E-2
6.9144E+2	1.2193E-2
6.9166E+2	1.1493E-2
6.9188E+2	1.2038E-2
6.9210E+2	6.0758E-3
6.9232E+2	1.3905E-2
6.9255E+2	1.2532E-2
6.9277E+2	1.1983E-2
6.9299E+2	1.4394E-2
6.9321E+2	1.4160E-2
6.9343E+2	1.4096E-2
6.9365E+2	1.4832E-2
6.9387E+2	1.1710E-2
6.9410E+2	1.6374E-2
6.9432E+2	1.1162E-2
6.9454E+2	1.7359E-2
6.9476E+2	1.5104E-2
6.9498E+2	1.4125E-2
6.9520E+2	1.7138E-2
6.9542E+2	1.9854E-2
6.9565E+2	1.8087E-2
6.9587E+2	1.9966E-2
6.9609E+2	1.9027E-2
6.9631E+2	1.8366E-2
6.9653E+2	1.7948E-2
6.9675E+2	1.5749E-2
6.9697E+2	1.8395E-2
6.9719E+2	1.6998E-2
6.9742E+2	2.3198E-2
6.9764E+2	1.6071E-2
6.9786E+2	2.0038E-2
6.9808E+2	2.2581E-2
6.9830E+2	2.2546E-2
6.9852E+2	2.5774E-2
6.9874E+2	2.4907E-2
6.9896E+2	1.8730E-2
6.9918E+2	2.5011E-2
6.9941E+2	2.0918E-2
6.9963E+2	2.3457E-2
6.9985E+2	1.7809E-2
7.0007E+2	2.1685E-2
7.0029E+2	2.3122E-2
7.0051E+2	2.4184E-2
7.0073E+2	2.6696E-2
7.0095E+2	2.5841E-2
7.0117E+2	2.9066E-2
7.0139E+2	2.7135E-2
7.0161E+2	2.4325E-2
7.0184E+2	2.8473E-2
7.0206E+2	3.0200E-2
7.0228E+2	2.9376E-2
7.0250E+2	2.5957E-2
7.0272E+2	3.1649E-2
7.0294E+2	3.0869E-2
7.0316E+2	3.2529E-2
7.0338E+2	2.9116E-2
7.0360E+2	3.6029E-2
7.0382E+2	3.1346E-2
7.0404E+2	3.2325E-2
7.0426E+2	3.1164E-2
7.0448E+2	3.4900E-2
7.0470E+2	3.4917E-2
7.0492E+2	3.6209E-2
7.0515E+2	3.5831E-2
7.0537E+2	3.5371E-2
7.0559E+2	3.5534E-2
7.0581E+2	3.7424E-2
7.0603E+2	3.8521E-2
7.0625E+2	3.6250E-2
7.0647E+2	4.0788E-2
7.0669E+2	3.8544E-2
7.0691E+2	4.0830E-2
7.0713E+2	3.9913E-2
7.0735E+2	3.9984E-2
7.0757E+2	4.3923E-2
7.0779E+2	3.5191E-2
7.0801E+2	4.1661E-2
7.0823E+2	4.2472E-2
7.0845E+2	4.6367E-2
7.0867E+2	5.0300E-2
7.0889E+2	4.7015E-2
7.0911E+2	5.0309E-2
7.0933E+2	5.4071E-2
7.0955E+2	5.6360E-2
7.0977E+2	4.9558E-2
7.0999E+2	5.3233E-2
7.1021E+2	5.8211E-2
7.1043E+2	5.5355E-2
7.1065E+2	5.9732E-2
7.1087E+2	5.9210E-2
7.1109E+2	5.8146E-2
7.1131E+2	6.5486E-2
7.1153E+2	6.1949E-2
7.1175E+2	6.1748E-2
7.1197E+2	6.0159E-2
7.1219E+2	6.3046E-2
7.1241E+2	6.7627E-2
7.1263E+2	6.7587E-2
7.1285E+2	6.9236E-2
7.1307E+2	6.7787E-2
7.1329E+2	7.6872E-2
7.1351E+2	7.3318E-2
7.1373E+2	6.8813E-2
7.1395E+2	7.1475E-2
7.1417E+2	8.0669E-2
7.1439E+2	7.6537E-2
7.1461E+2	7.8080E-2
7.1483E+2	8.1809E-2
7.1505E+2	8.0351E-2
7.1527E+2	8.5200E-2
7.1549E+2	8.2370E-2
7.1571E+2	8.5475E-2
7.1593E+2	8.7945E-2
7.1615E+2	8.9002E-2
7.1637E+2	8.9598E-2
7.1659E+2	9.2512E-2
7.1681E+2	9.2481E-2
7.1703E+2	1.0093E-1
7.1725E+2	9.7720E-2
7.1747E+2	9.9702E-2
7.1769E+2	9.6192E-2
7.1791E+2	1.0266E-1
7.1813E+2	1.0752E-1
7.1835E+2	1.0457E-1
7.1857E+2	1.1160E-1
7.1879E+2	1.1251E-1
7.1901E+2	1.1174E-1
7.1923E+2	1.1140E-1
7.1944E+2	1.1401E-1
7.1966E+2	1.1855E-1
7.1988E+2	1.1781E-1
7.2010E+2	1.2322E-1
7.2032E+2	1.1806E-1
7.2054E+2	1.2497E-1
7.2076E+2	1.2479E-1
7.2098E+2	1.2716E-1
7.2120E+2	1.2806E-1
7.2142E+2	1.3461E-1
7.2164E+2	1.3113E-1
7.2186E+2	1.3382E-1
7.2208E+2	1.4164E-1
7.2230E+2	1.4458E-1
7.2252E+2	1.4672E-1
7.2273E+2	1.4656E-1
7.2295E+2	1.4583E-1
7.2317E+2	1.5321E-1
7.2339E+2	1.5632E-1
7.2361E+2	1.5746E-1
7.2383E+2	1.5855E-1
7.2405E+2	1.6419E-1
7.2427E+2	1.6112E-1
7.2449E+2	1.6006E-1
7.2471E+2	1.6977E-1
7.2493E+2	1.7251E-1
7.2514E+2	1.7049E-1
7.2536E+2	1.7218E-1
7.2558E+2	1.7714E-1
7.2580E+2	1.8028E-1
7.2602E+2	1.8080E-1
7.2624E+2	1.8284E-1
7.2646E+2	1.8587E-1
7.2668E+2	1.9055E-1
7.2690E+2	1.8529E-1
7.2711E+2	1.9399E-1
7.2733E+2	1.9917E-1
7.2755E+2	1.9851E-1
7.2777E+2	2.0852E-1
7.2799E+2	2.0423E-1
7.2821E+2	2.1451E-1
7.2843E+2	2.1014E-1
7.2865E+2	2.1555E-1
7.2886E+2	2.2450E-1
7.2908E+2	2.2295E-1
7.2930E+2	2.2263E-1
7.2952E+2	2.2446E-1
7.2974E+2	2.2947E-1
7.2996E+2	2.3402E-1
7.3018E+2	2.3290E-1
7.3039E+2	2.3554E-1
7.3061E+2	2.3091E-1
7.3083E+2	2.4227E-1
7.3105E+2	2.4330E-1
7.3127E+2	2.4751E-1
7.3149E+2	2.5110E-1
7.3171E+2	2.4680E-1
7.3192E+2	2.5480E-1
7.3214E+2	2.6059E-1
7.3236E+2	2.6310E-1
7.3258E+2	2.6442E-1
7.3280E+2	2.6406E-1
7.3302E+2	2.6787E-1
7.3323E+2	2.7664E-1
7.3345E+2	2.7752E-1
7.3367E+2	2.8006E-1
7.3389E+2	2.8222E-1
7.3411E+2	2.8336E-1
7.3433E+2	2.8328E-1
7.3454E+2	2.9013E-1
7.3476E+2	2.8581E-1
7.3498E+2	2.8842E-1
7.3520E+2	2.9690E-1
7.3542E+2	2.8570E-1
7.3564E+2	2.9146E-1
7.3585E+2	2.9391E-1
7.3607E+2	2.9598E-1
7.3629E+2	2.9976E-1
7.3651E+2	3.0880E-1
7.3673E+2	3.0399E-1
7.3694E+2	3.0906E-1
7.3716E+2	3.1469E-1
7.3738E+2	3.1693E-1
7.3760E+2	3.2542E-1
7.3782E+2	3.2373E-1
7.3803E+2	3.3089E-1
7.3825E+2	3.2642E-1
7.3847E+2	3.3126E-1
7.3869E+2	3.3266E-1
7.3891E+2	3.3415E-1
7.3912E+2	3.3244E-1
7.3934E+2	3.4235E-1
7.3956E+2	3.2964E-1
7.3978E+2	3.4078E-1
7.4000E+2	3.3508E-1
7.4021E+2	3.3326E-1
7.4043E+2	3.3651E-1
7.4065E+2	3.3121E-1
7.4087E+2	3.3423E-1
7.4108E+2	3.3952E-1
7.4130E+2	3.3989E-1
7.4152E+2	3.4456E-1
7.4174E+2	3.4627E-1
7.4196E+2	3.5070E-1
7.4217E+2	3.5018E-1
7.4239E+2	3.5082E-1
7.4261E+2	3.5154E-1
7.4283E+2	3.5485E-1
7.4304E+2	3.5676E-1
7.4326E+2	3.5397E-1
7.4348E+2	3.5411E-1
7.4370E+2	3.5299E-1
7.4391E+2	3.5440E-1
7.4413E+2	3.5417E-1
7.4435E+2	3.4950E-1
7.4457E+2	3.5535E-1
7.4478E+2	3.5295E-1
7.4500E+2	3.4412E-1
7.4522E+2	3.4543E-1
7.4544E+2	3.5188E-1
7.4565E+2	3.5051E-1
7.4587E+2	3.4665E-1
7.4609E+2	3.5112E-1
7.4631E+2	3.4770E-1
7.4652E+2	3.5294E-1
7.4674E+2	3.5265E-1
7.4696E+2	3.4677E-1
7.4717E+2	3.6927E-1
7.4739E+2	3.5572E-1
7.4761E+2	3.5456E-1
7.4783E+2	3.6105E-1
7.4804E+2	3.5639E-1
7.4826E+2	3.5109E-1
7.4848E+2	3.5593E-1
7.4869E+2	3.5713E-1
7.4891E+2	3.5169E-1
7.4913E+2	3.5354E-1
7.4935E+2	3.5241E-1
7.4956E+2	3.4834E-1
7.4978E+2	3.4372E-1
7.5000E+2	3.4084E-1
7.5021E+2	3.4053E-1
7.5043E+2	3.4514E-1
7.5065E+2	3.3587E-1
7.5087E+2	3.3550E-1
7.5108E+2	3.4736E-1
7.5130E+2	3.3743E-1
7.5152E+2	3.3522E-1
7.5173E+2	3.3681E-1
7.5195E+2	3.4027E-1
7.5217E+2	3.4164E-1
7.5238E+2	3.3986E-1
7.5260E+2	3.3416E-1
7.5282E+2	3.3043E-1
7.5303E+2	3.3399E-1
7.5325E+2	3.3424E-1
7.5347E+2	3.3473E-1
7.5368E+2	3.3131E-1
7.5390E+2	3.2966E-1
7.5412E+2	3.2422E-1
7.5433E+2	3.2533E-1
7.5455E+2	3.2768E-1
7.5477E+2	3.2100E-1
7.5498E+2	3.1751E-1
7.5520E+2	3.1664E-1
7.5542E+2	3.1364E-1
7.5563E+2	3.1275E-1
7.5585E+2	3.0573E-1
7.5607E+2	3.1050E-1
7.5628E+2	3.0241E-1
7.5650E+2	3.0264E-1
7.5672E+2	3.0775E-1
7.5693E+2	3.0136E-1
7.5715E+2	3.0598E-1
7.5737E+2	2.9718E-1
7.5758E+2	3.0375E-1
7.5780E+2	2.9984E-1
7.5802E+2	2.9398E-1
7.5823E+2	2.9765E-1
7.5845E+2	2.9371E-1
7.5866E+2	2.9295E-1
7.5888E+2	2.9577E-1
7.5910E+2	2.9100E-1
7.5931E+2	2.9013E-1
7.5953E+2	2.8248E-1
7.5975E+2	2.9224E-1
7.5996E+2	2.8122E-1
7.6018E+2	2.7725E-1
7.6040E+2	2.7651E-1
7.6061E+2	2.7067E-1
7.6083E+2	2.6677E-1
7.6104E+2	2.6857E-1
7.6126E+2	2.6049E-1
7.6148E+2	2.6574E-1
7.6169E+2	2.5506E-1
7.6191E+2	2.6198E-1
7.6212E+2	2.6112E-1
7.6234E+2	2.5386E-1
7.6256E+2	2.5359E-1
7.6277E+2	2.5613E-1
7.6299E+2	2.5624E-1
7.6320E+2	2.5061E-1
7.6342E+2	2.4417E-1
7.6364E+2	2.4957E-1
7.6385E+2	2.4295E-1
7.6407E+2	2.4385E-1
7.6428E+2	2.4429E-1
7.6450E+2	2.4100E-1
7.6472E+2	2.4109E-1
7.6493E+2	2.3655E-1
7.6515E+2	2.3431E-1
7.6536E+2	2.2244E-1
7.6558E+2	2.3054E-1
7.6579E+2	2.2310E-1
7.6601E+2	2.2193E-1
7.6623E+2	2.2323E-1
7.6644E+2	2.1803E-1
7.6666E+2	2.1129E-1
7.6687E+2	2.1394E-1
7.6709E+2	2.0985E-1
7.6730E+2	2.0387E-1
7.6752E+2	2.0556E-1
7.6774E+2	2.0364E-1
7.6795E+2	1.9837E-1
7.6817E+2	2.0075E-1
7.6838E+2	1.9342E-1
7.6860E+2	1.9736E-1
7.6881E+2	1.9621E-1
7.6903E+2	1.9148E-1
7.6925E+2	1.9236E-1
7.6946E+2	1.9316E-1
7.6968E+2	1.8859E-1
7.6989E+2	1.9365E-1
7.7011E+2	1.9415E-1
7.7032E+2	1.9271E-1
7.7054E+2	1.9323E-1
7.7075E+2	1.8443E-1
7.7097E+2	1.7855E-1
7.7118E+2	1.7382E-1
7.7140E+2	1.6652E-1
7.7161E+2	1.6730E-1
7.7183E+2	1.6392E-1
7.7205E+2	1.6045E-1
7.7226E+2	1.5674E-1
7.7248E+2	1.5643E-1
7.7269E+2	1.5300E-1
7.7291E+2	1.4940E-1
7.7312E+2	1.4887E-1
7.7334E+2	1.4987E-1
7.7355E+2	1.4732E-1
7.7377E+2	1.4200E-1
7.7398E+2	1.4042E-1
7.7420E+2	1.3881E-1
7.7441E+2	1.3647E-1
7.7463E+2	1.4062E-1
7.7484E+2	1.3765E-1
7.7506E+2	1.3570E-1
7.7527E+2	1.3167E-1
7.7549E+2	1.3110E-1
7.7570E+2	1.2838E-1
7.7592E+2	1.3100E-1
7.7613E+2	1.2919E-1
7.7635E+2	1.2456E-1
7.7656E+2	1.2267E-1
7.7678E+2	1.1808E-1
7.7699E+2	1.1568E-1
7.7721E+2	1.1296E-1
7.7742E+2	1.1311E-1
7.7764E+2	1.0991E-1
7.7785E+2	1.0965E-1
7.7807E+2	1.0725E-1
7.7828E+2	1.0320E-1
7.7850E+2	1.0566E-1
7.7871E+2	1.0130E-1
7.7893E+2	9.7975E-2
7.7914E+2	9.9357E-2
7.7936E+2	9.7183E-2
7.7957E+2	9.5901E-2
7.7978E+2	9.4195E-2
7.8000E+2	9.2704E-2
7.8021E+2	9.2537E-2
7.8043E+2	9.1188E-2
7.8064E+2	8.9920E-2
7.8086E+2	8.8481E-2
7.8107E+2	8.5983E-2
7.8129E+2	8.6160E-2
7.8150E+2	8.5926E-2
7.8172E+2	8.1707E-2
7.8193E+2	7.9445E-2
7.8214E+2	7.8717E-2
7.8236E+2	7.8358E-2
7.8257E+2	7.3486E-2
7.8279E+2	7.3452E-2
7.8300E+2	7.3889E-2
7.8322E+2	7.3027E-2
7.8343E+2	6.8829E-2
7.8365E+2	6.7602E-2
7.8386E+2	6.9343E-2
7.8407E+2	6.6243E-2
7.8429E+2	6.6607E-2
7.8450E+2	6.2560E-2
7.8472E+2	6.2731E-2
7.8493E+2	6.2343E-2
7.8515E+2	6.4704E-2
7.8536E+2	5.9624E-2
7.8557E+2	5.8946E-2
7.8579E+2	5.6892E-2
7.8600E+2	5.8688E-2
7.8622E+2	5.7151E-2
7.8643E+2	5.6658E-2
7.8665E+2	5.4344E-2
7.8686E+2	5.5030E-2
7.8707E+2	5.3680E-2
7.8729E+2	5.4196E-2
7.8750E+2	5.1216E-2
7.8772E+2	5.1257E-2
7.8793E+2	4.9808E-2
7.8814E+2	4.6175E-2
7.8836E+2	4.8719E-2
7.8857E+2	4.5644E-2
7.8879E+2	4.4094E-2
7.8900E+2	4.4138E-2
7.8921E+2	4.5434E-2
7.8943E+2	4.3977E-2
7.8964E+2	3.8470E-2
7.8985E+2	4.2940E-2
7.9007E+2	3.9273E-2
7.9028E+2	3.8306E-2
7.9050E+2	3.7723E-2
7.9071E+2	3.8790E-2
7.9092E+2	3.6308E-2
7.9114E+2	3.4465E-2
7.9135E+2	3.7773E-2
7.9157E+2	3.5569E-2
7.9178E+2	3.7667E-2
7.9199E+2	3.5698E-2
7.9221E+2	3.4853E-2
7.9242E+2	3.5372E-2
7.9263E+2	3.3875E-2
7.9285E+2	3.2534E-2
7.9306E+2	3.3997E-2
7.9327E+2	3.1415E-2
7.9349E+2	3.1374E-2
7.9370E+2	3.3114E-2
7.9392E+2	2.9754E-2
7.9413E+2	3.1551E-2
7.9434E+2	2.9901E-2
7.9456E+2	2.9535E-2
7.9477E+2	2.8170E-2
7.9498E+2	3.0215E-2
7.9520E+2	2.8935E-2
7.9541E+2	2.5323E-2
7.9562E+2	2.6081E-2
7.9584E+2	2.5325E-2
7.9605E+2	2.7739E-2
7.9626E+2	2.5837E-2
7.9648E+2	2.3884E-2
7.9669E+2	2.5035E-2
7.9690E+2	2.4190E-2
7.9712E+2	2.3829E-2
7.9733E+2	2.4149E-2
7.9754E+2	2.4947E-2
7.9776E+2	2.2071E-2
7.9797E+2	2.3479E-2
7.9818E+2	2.4119E-2
7.9840E+2	2.3630E-2
7.9861E+2	2.4091E-2
7.9882E+2	2.5750E-2
7.9904E+2	2.3536E-2
7.9925E+2	2.1141E-2
7.9946E+2	2.0855E-2
7.9967E+2	2.0059E-2
7.9989E+2	2.2124E-2
8.0010E+2	1.9731E-2
8.0031E+2	1.9709E-2
8.0053E+2	1.9374E-2
8.0074E+2	1.9416E-2
8.0095E+2	1.8680E-2
8.0117E+2	1.8145E-2
8.0138E+2	1.3875E-2
8.0159E+2	1.5872E-2
8.0180E+2	1.6644E-2
8.0202E+2	1.8267E-2
8.0223E+2	1.6134E-2
8.0244E+2	1.5023E-2
8.0266E+2	1.7725E-2
8.0287E+2	1.5888E-2
8.0308E+2	1.3444E-2
8.0329E+2	1.4309E-2
8.0351E+2	1.6307E-2
8.0372E+2	1.5007E-2
8.0393E+2	1.2893E-2
8.0415E+2	1.3507E-2
8.0436E+2	1.4587E-2
8.0457E+2	1.3375E-2
8.0478E+2	1.4075E-2
8.0500E+2	1.3986E-2
8.0521E+2	1.4355E-2
8.0542E+2	1.2976E-2
8.0563E+2	1.2572E-2
8.0585E+2	1.1356E-2
8.0606E+2	1.3206E-2
8.0627E+2	1.4697E-2
8.0648E+2	1.0164E-2
8.0670E+2	1.2431E-2
8.0691E+2	1.1775E-2
8.0712E+2	1.2009E-2
8.0733E+2	1.1064E-2
8.0755E+2	1.0527E-2
8.0776E+2	1.1032E-2
8.0797E+2	1.1773E-2
8.0818E+2	1.0880E-2
8.0840E+2	1.2540E-2
8.0861E+2	1.0806E-2
8.0882E+2	1.1530E-2
8.0903E+2	9.8227E-3
8.0925E+2	8.0191E-3
8.0946E+2	1.0847E-2
8.0967E+2	1.0144E-2
8.0988E+2	9.2508E-3
8.1009E+2	9.8454E-3
8.1031E+2	1.1094E-2
8.1052E+2	1.0097E-2
8.1073E+2	1.0018E-2
8.1094E+2	9.9324E-3
8.1116E+2	9.3223E-3
8.1137E+2	9.1723E-3
8.1158E+2	1.0162E-2
8.1179E+2	9.2295E-3
8.1200E+2	8.9257E-3
8.1222E+2	8.6770E-3
8.1243E+2	7.5402E-3
8.1264E+2	7.7670E-3
8.1285E+2	8.6684E-3
8.1306E+2	8.1365E-3
8.1328E+2	7.7743E-3
8.1349E+2	6.6348E-3
8.1370E+2	9.8891E-3
8.1391E+2	6.8700E-3
8.1412E+2	5.7815E-3
8.1434E+2	7.6378E-3
8.1455E+2	8.1602E-3
8.1476E+2	7.6114E-3
8.1497E+2	5.8425E-3
8.1518E+2	7.7924E-3
8.1540E+2	6.0421E-3
8.1561E+2	8.4121E-3
8.1582E+2	6.5486E-3
8.1603E+2	5.7429E-3
8.1624E+2	7.8742E-3
8.1645E+2	7.5326E-3
8.1667E+2	7.9336E-3
8.1688E+2	9.6159E-3
8.1709E+2	8.1124E-3
8.1730E+2	5.9488E-3
8.1751E+2	7.3886E-3
8.1772E+2	8.3582E-3
8.1794E+2	6.1138E-3
8.1815E+2	8.5058E-3
8.1836E+2	6.5277E-3
8.1857E+2	6.4955E-3
8.1878E+2	4.6282E-3
8.1899E+2	8.8203E-3
8.1921E+2	6.6299E-3
8.1942E+2	5.7287E-3
8.1963E+2	7.6105E-3
8.1984E+2	5.6393E-3
8.2005E+2	4.8595E-3
8.2026E+2	5.5690E-3
8.2047E+2	4.8619E-3
8.2069E+2	3.9641E-3
8.2090E+2	5.8239E-3
8.2111E+2	5.1770E-3
8.2132E+2	6.9570E-3
8.2153E+2	5.3687E-3
8.2174E+2	5.4674E-3
8.2195E+2	2.8158E-3
8.2216E+2	6.2131E-3
8.2238E+2	4.8126E-3
8.2259E+2	4.2277E-3
8.2280E+2	5.1232E-3
8.2301E+2	5.9407E-3
8.2322E+2	1.3966E-2
8.2343E+2	1.5105E-2
8.2364E+2	1.4950E-2
8.2385E+2	1.5833E-2
8.2407E+2	1.4684E-2
8.2428E+2	1.0578E-2
8.2449E+2	8.1624E-3
8.2470E+2	3.9965E-3
8.2491E+2	6.1135E-3
8.2512E+2	4.3954E-3
8.2533E+2	2.9861E-3
8.2554E+2	4.2379E-3
8.2575E+2	5.9495E-3
8.2596E+2	3.7802E-3
8.2618E+2	3.7788E-3
8.2639E+2	5.5714E-3
8.2660E+2	2.5427E-3
8.2681E+2	3.1372E-3
8.2702E+2	4.5919E-3
8.2723E+2	3.3586E-3
8.2744E+2	5.5365E-3
8.2765E+2	4.6982E-3
8.2786E+2	5.3739E-3
8.2807E+2	4.6012E-3
8.2828E+2	3.6289E-3
8.2849E+2	3.8274E-3
8.2871E+2	2.4213E-3
8.2892E+2	5.1815E-3
8.2913E+2	2.7307E-3
8.2934E+2	2.0370E-3
8.2955E+2	4.6651E-3
8.2976E+2	7.0391E-3
8.2997E+2	4.6094E-3
8.3018E+2	3.7989E-3
8.3039E+2	4.3777E-3
8.3060E+2	3.3041E-3
8.3081E+2	4.9953E-3
