PLQY measurement:
Date: 	08.03.2023 17:30:53
Peak emission wavelength (nm): 739
 PLQY = 	 	7.17E-3
absorded light fraction (%): 98
MAYA saturard: FALSE
USB2000 saturaed: FALSE
wavelength	corrected total emission spec
6.7232E+2	1.2708E-2
6.7254E+2	1.5169E-2
6.7276E+2	1.6511E-2
6.7298E+2	1.2333E-2
6.7321E+2	1.4358E-2
6.7343E+2	9.7514E-3
6.7365E+2	1.4822E-2
6.7388E+2	1.3928E-2
6.7410E+2	1.0111E-2
6.7432E+2	1.4512E-2
6.7455E+2	7.6467E-3
6.7477E+2	5.6023E-3
6.7499E+2	1.1371E-2
6.7521E+2	8.7980E-3
6.7544E+2	1.4746E-2
6.7566E+2	9.4041E-3
6.7588E+2	1.5492E-2
6.7611E+2	1.1246E-2
6.7633E+2	1.2713E-2
6.7655E+2	1.1241E-2
6.7677E+2	1.0434E-2
6.7700E+2	1.2746E-2
6.7722E+2	9.1493E-3
6.7744E+2	1.0453E-2
6.7766E+2	1.5261E-2
6.7789E+2	9.8012E-3
6.7811E+2	1.4897E-2
6.7833E+2	1.4824E-2
6.7856E+2	1.4483E-2
6.7878E+2	1.5545E-2
6.7900E+2	1.4995E-2
6.7922E+2	1.8073E-2
6.7945E+2	1.7625E-2
6.7967E+2	1.6898E-2
6.7989E+2	1.3899E-2
6.8011E+2	1.5145E-2
6.8034E+2	9.7829E-3
6.8056E+2	1.0932E-2
6.8078E+2	1.8982E-2
6.8100E+2	1.0515E-2
6.8123E+2	1.9632E-2
6.8145E+2	1.4785E-2
6.8167E+2	1.6327E-2
6.8189E+2	1.2859E-2
6.8212E+2	1.5363E-2
6.8234E+2	1.2530E-2
6.8256E+2	1.4371E-2
6.8278E+2	1.7339E-2
6.8300E+2	1.4783E-2
6.8323E+2	1.5167E-2
6.8345E+2	1.6911E-2
6.8367E+2	1.2128E-2
6.8389E+2	1.6654E-2
6.8412E+2	1.9458E-2
6.8434E+2	1.4667E-2
6.8456E+2	1.2099E-2
6.8478E+2	1.6050E-2
6.8500E+2	1.0190E-2
6.8523E+2	1.7875E-2
6.8545E+2	1.6708E-2
6.8567E+2	1.6212E-2
6.8589E+2	1.8684E-2
6.8611E+2	1.6499E-2
6.8634E+2	1.3179E-2
6.8656E+2	1.7788E-2
6.8678E+2	1.8141E-2
6.8700E+2	1.7183E-2
6.8722E+2	1.7581E-2
6.8745E+2	1.8141E-2
6.8767E+2	2.0949E-2
6.8789E+2	2.0544E-2
6.8811E+2	1.6066E-2
6.8833E+2	2.1291E-2
6.8856E+2	1.6436E-2
6.8878E+2	1.3897E-2
6.8900E+2	2.2097E-2
6.8922E+2	1.7631E-2
6.8944E+2	1.5874E-2
6.8966E+2	2.0249E-2
6.8989E+2	1.9758E-2
6.9011E+2	1.6610E-2
6.9033E+2	1.9293E-2
6.9055E+2	1.9085E-2
6.9077E+2	2.1549E-2
6.9099E+2	2.1205E-2
6.9122E+2	1.9810E-2
6.9144E+2	2.2745E-2
6.9166E+2	2.2057E-2
6.9188E+2	1.9998E-2
6.9210E+2	2.2550E-2
6.9232E+2	2.1523E-2
6.9255E+2	2.2382E-2
6.9277E+2	2.6124E-2
6.9299E+2	2.2775E-2
6.9321E+2	2.7018E-2
6.9343E+2	2.3641E-2
6.9365E+2	2.6282E-2
6.9387E+2	2.7445E-2
6.9410E+2	2.5557E-2
6.9432E+2	2.8915E-2
6.9454E+2	2.7312E-2
6.9476E+2	2.1025E-2
6.9498E+2	2.4353E-2
6.9520E+2	2.7605E-2
6.9542E+2	2.7021E-2
6.9565E+2	2.5814E-2
6.9587E+2	2.7012E-2
6.9609E+2	2.8732E-2
6.9631E+2	2.6776E-2
6.9653E+2	2.7703E-2
6.9675E+2	2.4391E-2
6.9697E+2	3.2010E-2
6.9719E+2	3.2932E-2
6.9742E+2	2.7676E-2
6.9764E+2	3.3082E-2
6.9786E+2	2.7135E-2
6.9808E+2	2.7418E-2
6.9830E+2	2.8922E-2
6.9852E+2	3.4717E-2
6.9874E+2	2.7652E-2
6.9896E+2	3.1010E-2
6.9918E+2	3.3653E-2
6.9941E+2	3.4785E-2
6.9963E+2	3.4596E-2
6.9985E+2	3.2112E-2
7.0007E+2	2.9585E-2
7.0029E+2	3.6403E-2
7.0051E+2	3.8150E-2
7.0073E+2	3.2990E-2
7.0095E+2	3.9805E-2
7.0117E+2	3.5691E-2
7.0139E+2	3.8216E-2
7.0161E+2	4.4952E-2
7.0184E+2	4.0842E-2
7.0206E+2	4.1459E-2
7.0228E+2	4.0282E-2
7.0250E+2	4.3911E-2
7.0272E+2	4.2785E-2
7.0294E+2	4.0754E-2
7.0316E+2	4.3763E-2
7.0338E+2	4.0920E-2
7.0360E+2	4.2017E-2
7.0382E+2	4.8592E-2
7.0404E+2	4.5643E-2
7.0426E+2	4.5016E-2
7.0448E+2	4.7063E-2
7.0470E+2	4.3645E-2
7.0492E+2	5.1464E-2
7.0515E+2	4.5172E-2
7.0537E+2	4.5514E-2
7.0559E+2	5.3330E-2
7.0581E+2	5.4056E-2
7.0603E+2	5.2936E-2
7.0625E+2	5.1852E-2
7.0647E+2	5.2285E-2
7.0669E+2	5.7979E-2
7.0691E+2	4.9441E-2
7.0713E+2	5.0572E-2
7.0735E+2	5.4486E-2
7.0757E+2	5.7659E-2
7.0779E+2	5.2554E-2
7.0801E+2	5.7527E-2
7.0823E+2	6.0511E-2
7.0845E+2	6.1036E-2
7.0867E+2	6.3998E-2
7.0889E+2	6.0906E-2
7.0911E+2	6.3852E-2
7.0933E+2	6.2412E-2
7.0955E+2	6.7509E-2
7.0977E+2	6.4748E-2
7.0999E+2	7.0464E-2
7.1021E+2	6.7811E-2
7.1043E+2	6.7276E-2
7.1065E+2	7.6524E-2
7.1087E+2	7.1445E-2
7.1109E+2	7.0718E-2
7.1131E+2	7.2063E-2
7.1153E+2	7.1347E-2
7.1175E+2	7.5717E-2
7.1197E+2	8.3216E-2
7.1219E+2	8.0048E-2
7.1241E+2	7.8196E-2
7.1263E+2	8.5765E-2
7.1285E+2	8.1286E-2
7.1307E+2	8.6750E-2
7.1329E+2	8.3764E-2
7.1351E+2	8.8287E-2
7.1373E+2	8.9779E-2
7.1395E+2	9.2538E-2
7.1417E+2	9.1226E-2
7.1439E+2	9.3100E-2
7.1461E+2	9.7987E-2
7.1483E+2	9.6970E-2
7.1505E+2	1.0085E-1
7.1527E+2	9.9478E-2
7.1549E+2	1.0207E-1
7.1571E+2	1.0050E-1
7.1593E+2	1.0188E-1
7.1615E+2	1.0102E-1
7.1637E+2	1.0153E-1
7.1659E+2	1.0761E-1
7.1681E+2	1.0680E-1
7.1703E+2	1.1256E-1
7.1725E+2	1.1560E-1
7.1747E+2	1.1623E-1
7.1769E+2	1.1561E-1
7.1791E+2	1.2283E-1
7.1813E+2	1.2743E-1
7.1835E+2	1.1999E-1
7.1857E+2	1.2735E-1
7.1879E+2	1.2593E-1
7.1901E+2	1.2611E-1
7.1923E+2	1.2388E-1
7.1944E+2	1.3643E-1
7.1966E+2	1.2991E-1
7.1988E+2	1.3446E-1
7.2010E+2	1.3874E-1
7.2032E+2	1.3980E-1
7.2054E+2	1.3797E-1
7.2076E+2	1.3869E-1
7.2098E+2	1.4468E-1
7.2120E+2	1.4506E-1
7.2142E+2	1.4849E-1
7.2164E+2	1.4815E-1
7.2186E+2	1.5057E-1
7.2208E+2	1.5615E-1
7.2230E+2	1.5703E-1
7.2252E+2	1.5656E-1
7.2273E+2	1.5818E-1
7.2295E+2	1.6739E-1
7.2317E+2	1.6607E-1
7.2339E+2	1.7220E-1
7.2361E+2	1.7186E-1
7.2383E+2	1.7794E-1
7.2405E+2	1.7726E-1
7.2427E+2	1.7751E-1
7.2449E+2	1.7667E-1
7.2471E+2	1.7677E-1
7.2493E+2	1.8762E-1
7.2514E+2	1.8679E-1
7.2536E+2	1.8597E-1
7.2558E+2	1.8801E-1
7.2580E+2	1.8480E-1
7.2602E+2	1.8627E-1
7.2624E+2	1.9860E-1
7.2646E+2	1.9888E-1
7.2668E+2	2.0008E-1
7.2690E+2	2.0476E-1
7.2711E+2	2.0135E-1
7.2733E+2	2.0821E-1
7.2755E+2	2.1621E-1
7.2777E+2	2.1259E-1
7.2799E+2	2.1568E-1
7.2821E+2	2.1821E-1
7.2843E+2	2.1724E-1
7.2865E+2	2.1982E-1
7.2886E+2	2.1452E-1
7.2908E+2	2.2846E-1
7.2930E+2	2.2712E-1
7.2952E+2	2.2505E-1
7.2974E+2	2.2461E-1
7.2996E+2	2.2588E-1
7.3018E+2	2.2699E-1
7.3039E+2	2.3191E-1
7.3061E+2	2.3773E-1
7.3083E+2	2.3423E-1
7.3105E+2	2.3274E-1
7.3127E+2	2.3853E-1
7.3149E+2	2.4185E-1
7.3171E+2	2.4246E-1
7.3192E+2	2.4399E-1
7.3214E+2	2.4691E-1
7.3236E+2	2.5024E-1
7.3258E+2	2.5234E-1
7.3280E+2	2.5876E-1
7.3302E+2	2.4874E-1
7.3323E+2	2.5569E-1
7.3345E+2	2.5934E-1
7.3367E+2	2.5997E-1
7.3389E+2	2.6319E-1
7.3411E+2	2.6219E-1
7.3433E+2	2.5772E-1
7.3454E+2	2.5532E-1
7.3476E+2	2.5899E-1
7.3498E+2	2.5869E-1
7.3520E+2	2.6485E-1
7.3542E+2	2.5750E-1
7.3564E+2	2.6386E-1
7.3585E+2	2.6011E-1
7.3607E+2	2.6353E-1
7.3629E+2	2.6427E-1
7.3651E+2	2.6721E-1
7.3673E+2	2.6456E-1
7.3694E+2	2.7266E-1
7.3716E+2	2.7264E-1
7.3738E+2	2.7143E-1
7.3760E+2	2.6877E-1
7.3782E+2	2.7583E-1
7.3803E+2	2.8105E-1
7.3825E+2	2.7871E-1
7.3847E+2	2.7964E-1
7.3869E+2	2.7771E-1
7.3891E+2	2.7531E-1
7.3912E+2	2.6899E-1
7.3934E+2	2.8737E-1
7.3956E+2	2.7013E-1
7.3978E+2	2.7833E-1
7.4000E+2	2.7843E-1
7.4021E+2	2.7424E-1
7.4043E+2	2.7143E-1
7.4065E+2	2.7314E-1
7.4087E+2	2.7078E-1
7.4108E+2	2.7348E-1
7.4130E+2	2.7006E-1
7.4152E+2	2.7427E-1
7.4174E+2	2.7988E-1
7.4196E+2	2.7006E-1
7.4217E+2	2.7399E-1
7.4239E+2	2.7941E-1
7.4261E+2	2.7884E-1
7.4283E+2	2.7844E-1
7.4304E+2	2.7939E-1
7.4326E+2	2.7459E-1
7.4348E+2	2.7556E-1
7.4370E+2	2.8054E-1
7.4391E+2	2.7500E-1
7.4413E+2	2.6940E-1
7.4435E+2	2.6879E-1
7.4457E+2	2.6906E-1
7.4478E+2	2.6301E-1
7.4500E+2	2.6444E-1
7.4522E+2	2.6624E-1
7.4544E+2	2.6619E-1
7.4565E+2	2.6811E-1
7.4587E+2	2.5630E-1
7.4609E+2	2.6414E-1
7.4631E+2	2.6429E-1
7.4652E+2	2.6911E-1
7.4674E+2	2.6400E-1
7.4696E+2	2.6338E-1
7.4717E+2	2.6083E-1
7.4739E+2	2.6242E-1
7.4761E+2	2.6618E-1
7.4783E+2	2.5660E-1
7.4804E+2	2.6042E-1
7.4826E+2	2.6037E-1
7.4848E+2	2.5874E-1
7.4869E+2	2.5413E-1
7.4891E+2	2.5259E-1
7.4913E+2	2.4530E-1
7.4935E+2	2.4368E-1
7.4956E+2	2.5627E-1
7.4978E+2	2.4837E-1
7.5000E+2	2.4197E-1
7.5021E+2	2.4031E-1
7.5043E+2	2.3924E-1
7.5065E+2	2.4433E-1
7.5087E+2	2.4108E-1
7.5108E+2	2.4019E-1
7.5130E+2	2.3800E-1
7.5152E+2	2.3561E-1
7.5173E+2	2.3608E-1
7.5195E+2	2.3933E-1
7.5217E+2	2.3604E-1
7.5238E+2	2.4063E-1
7.5260E+2	2.2759E-1
7.5282E+2	2.3504E-1
7.5303E+2	2.2999E-1
7.5325E+2	2.3505E-1
7.5347E+2	2.3486E-1
7.5368E+2	2.2853E-1
7.5390E+2	2.2716E-1
7.5412E+2	2.2281E-1
7.5433E+2	2.2018E-1
7.5455E+2	2.1472E-1
7.5477E+2	2.1742E-1
7.5498E+2	2.1830E-1
7.5520E+2	2.1318E-1
7.5542E+2	2.1383E-1
7.5563E+2	2.1656E-1
7.5585E+2	2.0787E-1
7.5607E+2	2.0992E-1
7.5628E+2	2.0348E-1
7.5650E+2	2.0093E-1
7.5672E+2	2.0316E-1
7.5693E+2	2.0428E-1
7.5715E+2	2.0318E-1
7.5737E+2	2.0244E-1
7.5758E+2	1.9938E-1
7.5780E+2	1.9830E-1
7.5802E+2	1.9877E-1
7.5823E+2	1.9987E-1
7.5845E+2	1.9235E-1
7.5866E+2	1.8828E-1
7.5888E+2	1.9065E-1
7.5910E+2	1.8976E-1
7.5931E+2	1.8406E-1
7.5953E+2	1.8281E-1
7.5975E+2	1.8472E-1
7.5996E+2	1.7878E-1
7.6018E+2	1.7769E-1
7.6040E+2	1.7726E-1
7.6061E+2	1.7258E-1
7.6083E+2	1.7524E-1
7.6104E+2	1.7086E-1
7.6126E+2	1.6929E-1
7.6148E+2	1.6885E-1
7.6169E+2	1.6675E-1
7.6191E+2	1.6552E-1
7.6212E+2	1.6196E-1
7.6234E+2	1.6538E-1
7.6256E+2	1.6410E-1
7.6277E+2	1.5406E-1
7.6299E+2	1.5887E-1
7.6320E+2	1.5614E-1
7.6342E+2	1.5417E-1
7.6364E+2	1.5391E-1
7.6385E+2	1.5402E-1
7.6407E+2	1.5906E-1
7.6428E+2	1.5426E-1
7.6450E+2	1.5251E-1
7.6472E+2	1.5236E-1
7.6493E+2	1.4653E-1
7.6515E+2	1.4496E-1
7.6536E+2	1.4306E-1
7.6558E+2	1.4350E-1
7.6579E+2	1.3848E-1
7.6601E+2	1.3538E-1
7.6623E+2	1.3205E-1
7.6644E+2	1.3376E-1
7.6666E+2	1.2931E-1
7.6687E+2	1.2794E-1
7.6709E+2	1.2499E-1
7.6730E+2	1.2887E-1
7.6752E+2	1.2357E-1
7.6774E+2	1.2631E-1
7.6795E+2	1.2006E-1
7.6817E+2	1.2384E-1
7.6838E+2	1.2230E-1
7.6860E+2	1.1912E-1
7.6881E+2	1.1682E-1
7.6903E+2	1.1787E-1
7.6925E+2	1.1681E-1
7.6946E+2	1.2162E-1
7.6968E+2	1.1857E-1
7.6989E+2	1.1853E-1
7.7011E+2	1.1871E-1
7.7032E+2	1.1884E-1
7.7054E+2	1.1776E-1
7.7075E+2	1.1610E-1
7.7097E+2	1.0364E-1
7.7118E+2	9.7285E-2
7.7140E+2	9.9385E-2
7.7161E+2	1.0018E-1
7.7183E+2	1.0051E-1
7.7205E+2	9.8223E-2
7.7226E+2	9.6301E-2
7.7248E+2	9.6147E-2
7.7269E+2	9.4833E-2
7.7291E+2	9.5953E-2
7.7312E+2	9.1040E-2
7.7334E+2	8.9313E-2
7.7355E+2	8.8976E-2
7.7377E+2	8.7763E-2
7.7398E+2	8.8662E-2
7.7420E+2	8.5282E-2
7.7441E+2	9.0197E-2
7.7463E+2	8.6049E-2
7.7484E+2	8.6884E-2
7.7506E+2	8.5753E-2
7.7527E+2	8.1148E-2
7.7549E+2	8.2376E-2
7.7570E+2	8.4793E-2
7.7592E+2	8.5088E-2
7.7613E+2	7.9864E-2
7.7635E+2	7.8665E-2
7.7656E+2	7.6025E-2
7.7678E+2	7.3376E-2
7.7699E+2	7.3633E-2
7.7721E+2	7.1863E-2
7.7742E+2	6.9489E-2
7.7764E+2	6.5999E-2
7.7785E+2	6.5287E-2
7.7807E+2	6.6127E-2
7.7828E+2	6.5264E-2
7.7850E+2	6.9204E-2
7.7871E+2	6.7602E-2
7.7893E+2	6.3167E-2
7.7914E+2	6.4149E-2
7.7936E+2	6.0464E-2
7.7957E+2	6.1060E-2
7.7978E+2	6.1269E-2
7.8000E+2	6.2461E-2
7.8021E+2	5.8437E-2
7.8043E+2	6.1697E-2
7.8064E+2	6.1573E-2
7.8086E+2	5.8398E-2
7.8107E+2	5.8724E-2
7.8129E+2	5.5675E-2
7.8150E+2	5.6414E-2
7.8172E+2	5.2468E-2
7.8193E+2	5.2572E-2
7.8214E+2	5.2938E-2
7.8236E+2	5.2142E-2
7.8257E+2	5.1291E-2
7.8279E+2	4.9444E-2
7.8300E+2	5.1653E-2
7.8322E+2	4.2861E-2
7.8343E+2	5.1165E-2
7.8365E+2	4.8935E-2
7.8386E+2	4.7572E-2
7.8407E+2	4.4903E-2
7.8429E+2	4.5971E-2
7.8450E+2	4.5234E-2
7.8472E+2	4.5146E-2
7.8493E+2	4.4870E-2
7.8515E+2	4.1678E-2
7.8536E+2	4.3183E-2
7.8557E+2	4.2867E-2
7.8579E+2	4.0998E-2
7.8600E+2	4.1803E-2
7.8622E+2	4.0698E-2
7.8643E+2	4.0855E-2
7.8665E+2	3.7878E-2
7.8686E+2	4.1268E-2
7.8707E+2	3.9014E-2
7.8729E+2	3.9777E-2
7.8750E+2	3.7477E-2
7.8772E+2	3.5581E-2
7.8793E+2	3.8366E-2
7.8814E+2	3.3637E-2
7.8836E+2	3.6538E-2
7.8857E+2	3.4215E-2
7.8879E+2	3.3226E-2
7.8900E+2	3.4830E-2
7.8921E+2	3.3977E-2
7.8943E+2	3.1060E-2
7.8964E+2	3.2317E-2
7.8985E+2	3.2040E-2
7.9007E+2	3.2454E-2
7.9028E+2	3.0067E-2
7.9050E+2	3.2529E-2
7.9071E+2	3.1609E-2
7.9092E+2	3.2118E-2
7.9114E+2	3.1178E-2
7.9135E+2	2.6396E-2
7.9157E+2	3.0136E-2
7.9178E+2	2.7656E-2
7.9199E+2	3.1531E-2
7.9221E+2	2.8661E-2
7.9242E+2	2.9384E-2
7.9263E+2	2.9904E-2
7.9285E+2	2.6991E-2
7.9306E+2	2.8729E-2
7.9327E+2	2.6476E-2
7.9349E+2	2.6872E-2
7.9370E+2	2.4320E-2
7.9392E+2	2.4244E-2
7.9413E+2	2.4112E-2
7.9434E+2	2.4957E-2
7.9456E+2	2.4083E-2
7.9477E+2	2.4241E-2
7.9498E+2	2.0978E-2
7.9520E+2	2.5177E-2
7.9541E+2	2.4014E-2
7.9562E+2	2.3778E-2
7.9584E+2	2.2829E-2
7.9605E+2	2.2544E-2
7.9626E+2	1.9254E-2
7.9648E+2	2.1304E-2
7.9669E+2	1.7481E-2
7.9690E+2	2.2309E-2
7.9712E+2	2.0823E-2
7.9733E+2	1.8612E-2
7.9754E+2	1.9221E-2
7.9776E+2	2.2074E-2
7.9797E+2	1.8781E-2
7.9818E+2	1.9200E-2
7.9840E+2	1.7840E-2
7.9861E+2	1.9799E-2
7.9882E+2	1.7417E-2
7.9904E+2	1.7450E-2
7.9925E+2	1.7989E-2
7.9946E+2	1.7367E-2
7.9967E+2	1.9890E-2
7.9989E+2	1.6989E-2
8.0010E+2	1.5928E-2
8.0031E+2	2.0391E-2
8.0053E+2	1.6004E-2
8.0074E+2	1.8660E-2
8.0095E+2	1.5810E-2
8.0117E+2	1.8095E-2
8.0138E+2	1.6632E-2
8.0159E+2	1.6351E-2
8.0180E+2	1.5461E-2
8.0202E+2	1.5276E-2
8.0223E+2	1.4811E-2
8.0244E+2	1.5740E-2
8.0266E+2	1.4688E-2
8.0287E+2	1.5434E-2
8.0308E+2	1.5237E-2
8.0329E+2	1.5851E-2
8.0351E+2	1.4074E-2
8.0372E+2	1.5086E-2
8.0393E+2	1.3364E-2
8.0415E+2	1.2853E-2
8.0436E+2	1.5768E-2
8.0457E+2	1.3438E-2
8.0478E+2	1.4974E-2
8.0500E+2	1.1848E-2
8.0521E+2	1.3942E-2
8.0542E+2	1.3431E-2
8.0563E+2	1.3932E-2
8.0585E+2	1.3440E-2
8.0606E+2	1.4317E-2
8.0627E+2	1.2750E-2
8.0648E+2	1.2608E-2
8.0670E+2	1.3141E-2
8.0691E+2	1.1610E-2
8.0712E+2	1.2323E-2
8.0733E+2	1.1166E-2
8.0755E+2	1.0063E-2
8.0776E+2	1.2602E-2
8.0797E+2	1.0497E-2
8.0818E+2	1.1416E-2
8.0840E+2	1.2435E-2
8.0861E+2	9.9398E-3
8.0882E+2	1.1695E-2
8.0903E+2	9.9797E-3
8.0925E+2	1.1033E-2
8.0946E+2	8.6154E-3
8.0967E+2	1.0017E-2
8.0988E+2	1.1604E-2
8.1009E+2	8.5307E-3
8.1031E+2	1.3399E-2
8.1052E+2	9.8347E-3
8.1073E+2	1.0938E-2
8.1094E+2	8.9437E-3
8.1116E+2	1.0276E-2
8.1137E+2	1.0220E-2
