PE UV       SUBTECH     SPECTRUM    ASCII       PEDS        4.00        
   -1
9_TR.Sample.asc
23/04/12
12:20:13.00
23/04/12
12:20:13.00
Analyst

300.000000
1
Lambda 950
950L1311181
PerkinElmer UV WinLab 6.0.4.0738 / 1.61.00 Lambda 900

0
0
3350/servo 860.8/5
0
0
UV/VIS
1
1
1
RBeamAtt,SBeamAtt,150mm sphere / downward view, WB InGaAs Detector
0
0
0
0
Program
Program
3350/servo 860.8/5
3350/0.2 860.8/0.2
3350/0.2 860.8/0.2
0
9.50
 
 
 
0
 
860.8
319.2
860.8
Front
100
 
S:100 R:100
 
0
0
0
 
0
 
 
 
0
 
 
0
0
0
0
0
 
 
 
 
0
0


0
0
#HDR
-1
-1
#GR
nm
%R
1.0
0.0
1200.000000
-10.000000
91
8
50.934421
7.334022
#DATA
1200.000000	50.934421
1190.000000	50.164816
1180.000000	49.208542
1170.000000	48.081113
1160.000000	46.740596
1150.000000	45.169163
1140.000000	43.390359
1130.000000	41.408283
1120.000000	39.167934
1110.000000	36.727742
1100.000000	34.049199
1090.000000	31.171699
1080.000000	28.127096
1070.000000	24.998492
1060.000000	21.866614
1050.000000	18.796157
1040.000000	15.904896
1030.000000	13.324151
1020.000000	11.145706
1010.000000	9.477795
1000.000000	8.358684
990.000000	7.861635
980.000000	7.975264
970.000000	8.660600
960.000000	9.883979
950.000000	11.523546
940.000000	13.484743
930.000000	15.616945
920.000000	17.870823
910.000000	20.099081
900.000000	22.269285
890.000000	24.287016
880.000000	26.010400
870.000000	27.485389
860.000000	28.615119
850.000000	28.628086
840.000000	29.264355
830.000000	29.540763
820.000000	29.181888
810.000000	28.131641
800.000000	26.597623
790.000000	24.525185
780.000000	21.531891
770.000000	17.888555
760.000000	14.427033
750.000000	12.214802
740.000000	11.405580
730.000000	11.306495
720.000000	11.325680
710.000000	11.345953
700.000000	11.419973
690.000000	11.620157
680.000000	11.903099
670.000000	12.312054
660.000000	12.763358
650.000000	13.195317
640.000000	13.504455
630.000000	13.642879
620.000000	13.548269
610.000000	13.215229
600.000000	12.744882
590.000000	12.272567
580.000000	11.908903
570.000000	11.693480
560.000000	11.598414
550.000000	11.609641
540.000000	11.551318
530.000000	11.370582
520.000000	11.130983
510.000000	10.849231
500.000000	10.628411
490.000000	10.306191
480.000000	9.908184
470.000000	9.499878
460.000000	9.152925
450.000000	8.929618
440.000000	8.863874
430.000000	8.753335
420.000000	8.640589
410.000000	8.497303
400.000000	8.262204
390.000000	8.015706
380.000000	7.759101
370.000000	7.525810
360.000000	7.604093
350.000000	7.470111
340.000000	7.524330
330.000000	7.549659
320.000000	7.334022
310.000000	7.584166
300.000000	8.543260
