PE UV       SUBTECH     SPECTRUM    ASCII       PEDS        4.00        
   -1
Void_TT.Sample.asc
23/04/12
11:26:01.00
23/04/12
11:26:01.00
Analyst

300.000000
1
Lambda 950
950L1311181
PerkinElmer UV WinLab 6.0.4.0738 / 1.61.00 Lambda 900

0
0
3350/servo 860.8/5
0
0
UV/VIS
1
1
1
RBeamAtt,SBeamAtt,150mm sphere / downward view, WB InGaAs Detector
0
0
0
0
Program
Program
3350/servo 860.8/5
3350/0.2 860.8/0.2
3350/0.2 860.8/0.2
0
9.50
 
 
 
0
 
860.8
319.2
860.8
Front
100
 
S:100 R:100
 
0
0
0
 
0
 
 
 
0
 
 
0
0
0
0
0
 
 
 
 
0
0


0
0
#HDR
-1
-1
#GR
nm
%R
1.0
0.0
1200.000000
-10.000000
91
8
98.816976
92.246620
#DATA
1200.000000	98.087884
1190.000000	98.083931
1180.000000	98.087377
1170.000000	98.114810
1160.000000	98.171143
1150.000000	98.166584
1140.000000	98.194017
1130.000000	98.214760
1120.000000	98.263248
1110.000000	98.278957
1100.000000	98.294673
1090.000000	98.316119
1080.000000	98.332840
1070.000000	98.360671
1060.000000	98.399484
1050.000000	98.323801
1040.000000	98.303721
1030.000000	98.334367
1020.000000	98.345272
1010.000000	98.364226
1000.000000	98.391751
990.000000	98.373203
980.000000	98.443718
970.000000	98.438091
960.000000	98.555928
950.000000	98.568768
940.000000	98.616258
930.000000	98.605228
920.000000	98.678415
910.000000	98.572786
900.000000	98.620221
890.000000	98.612901
880.000000	98.709732
870.000000	98.737204
860.000000	98.721348
850.000000	98.404596
840.000000	97.737886
830.000000	98.385954
820.000000	98.699042
810.000000	98.669015
800.000000	98.698538
790.000000	98.692524
780.000000	98.696466
770.000000	98.816976
760.000000	98.759439
750.000000	98.699109
740.000000	98.665746
730.000000	98.804852
720.000000	98.710378
710.000000	98.544098
700.000000	98.704762
690.000000	98.677173
680.000000	98.578626
670.000000	98.550914
660.000000	98.581853
650.000000	98.492906
640.000000	98.437823
630.000000	98.417157
620.000000	98.441239
610.000000	98.385937
600.000000	98.431126
590.000000	98.581278
580.000000	98.549107
570.000000	98.520432
560.000000	98.541743
550.000000	98.604835
540.000000	98.517256
530.000000	98.588091
520.000000	98.540390
510.000000	98.551950
500.000000	98.583969
490.000000	98.537676
480.000000	98.386285
470.000000	98.494812
460.000000	98.526486
450.000000	98.423650
440.000000	98.408989
430.000000	98.305017
420.000000	98.188187
410.000000	98.125538
400.000000	98.058775
390.000000	97.922982
380.000000	97.698003
370.000000	97.524874
360.000000	97.300577
350.000000	96.973630
340.000000	96.945446
330.000000	96.778766
320.000000	96.402514
310.000000	93.865319
300.000000	92.246620
